stair.thisTrialN,stair.stepSize,stair.intensity,thisRow.t,notes,trial.started,fixation.started,grating.started,key_resp.started,fixation.stopped,grating.stopped,trial.stopped,corrAns,tilt,key_resp.corr,stair.response,key_resp.rt,participant,session,date,expName,psychopyVersion,frameRate,expStart,
0,2,10.0,0.03451229998609051,,0.0164558999822475,0.03451229998609051,0.5550740999751724,0.5550740999751724,0.5675186999724247,0.8685843999846838,1.6109862999874167,right,10.0,1,1,1.0450890000211075,443045,001,2024-09-11_22h23.43.919,Adaptive Staircase Experiment h.w,2024.1.5,None,2024-09-11 22h23.47.311808 +0530,
1,2,8.0,1.6335258000181057,,1.6111604999750853,1.6335258000181057,2.1205988000147045,2.1205988000147045,2.1371532999910414,2.420404899981804,2.5733605999848805,left,-8.0,1,1,0.4439066000049934,443045,001,2024-09-11_22h23.43.919,Adaptive Staircase Experiment h.w,2024.1.5,None,2024-09-11 22h23.47.311808 +0530,
2,2,6.0,2.5874570999876596,,2.5736137999920174,2.5874570999876596,3.086060700006783,3.086060700006783,3.101919699984137,3.3851237000199035,3.5072920999955386,right,6.0,1,1,0.41219980001915246,443045,001,2024-09-11_22h23.43.919,Adaptive Staircase Experiment h.w,2024.1.5,None,2024-09-11 22h23.47.311808 +0530,
3,2,4.0,3.5346118999877945,,3.50761919998331,3.5346118999877945,4.017887900001369,4.017887900001369,4.034588399983477,4.31856779998634,4.453832099970896,left,-4.0,1,1,0.42443259997526184,443045,001,2024-09-11_22h23.43.919,Adaptive Staircase Experiment h.w,2024.1.5,None,2024-09-11 22h23.47.311808 +0530,
4,2,2.0,4.468429500004277,,4.453996399999596,4.468429500004277,4.953833199979272,4.953833199979272,4.968359999998938,5.267882500018459,5.886151399987284,left,-2.0,1,1,0.930698600015603,443045,001,2024-09-11_22h23.43.919,Adaptive Staircase Experiment h.w,2024.1.5,None,2024-09-11 22h23.47.311808 +0530,
5,2,1.0,5.901169300021138,,5.886302999977488,5.901169300021138,6.401183800015133,6.401183800015133,6.401183800015133,6.703687999979593,6.873002499982249,right,1.0,1,1,0.4654152999864891,443045,001,2024-09-11_22h23.43.919,Adaptive Staircase Experiment h.w,2024.1.5,None,2024-09-11 22h23.47.311808 +0530,
6,1,1.0,6.887083399982657,,6.8732197000063024,6.887083399982657,7.386400300019886,7.386400300019886,7.386400300019886,7.68735799996648,7.772511199989822,right,1.0,0,0,0.37068880000151694,443045,001,2024-09-11_22h23.43.919,Adaptive Staircase Experiment h.w,2024.1.5,None,2024-09-11 22h23.47.311808 +0530,
7,1,2.0,7.7870952999801375,,7.772735800012015,7.7870952999801375,8.285808500018902,8.285808500018902,8.302778200013563,8.586699099978432,8.755199500010349,right,2.0,1,1,0.4672961999895051,443045,001,2024-09-11_22h23.43.919,Adaptive Staircase Experiment h.w,2024.1.5,None,2024-09-11 22h23.47.311808 +0530,
8,1,2.0,8.771070899965707,,8.755395599990152,8.771070899965707,9.271941100014374,9.271941100014374,9.28803809999954,9.586944699985906,9.689830199989956,right,2.0,1,1,0.40739769994979724,443045,001,2024-09-11_22h23.43.919,Adaptive Staircase Experiment h.w,2024.1.5,None,2024-09-11 22h23.47.311808 +0530,
9,1,2.0,9.704231699986849,,9.69007040001452,9.704231699986849,10.203803199983668,10.203803199983668,10.203803199983668,10.503538099990692,10.572844600013923,right,2.0,1,1,0.3548026999924332,443045,001,2024-09-11_22h23.43.919,Adaptive Staircase Experiment h.w,2024.1.5,None,2024-09-11 22h23.47.311808 +0530,
10,1,1.0,10.58710579999024,,10.573067499964964,10.58710579999024,11.085224499984179,11.085224499984179,11.102169499965385,11.386853299976792,11.539049100014381,right,1.0,1,1,0.4363741999841295,443045,001,2024-09-11_22h23.43.919,Adaptive Staircase Experiment h.w,2024.1.5,None,2024-09-11 22h23.47.311808 +0530,
11,0.5,1.0,11.552882799995132,,11.539262400008738,11.552882799995132,12.053094999981113,12.053094999981113,12.053094999981113,12.353130300005432,12.456478799984325,left,-1.0,0,0,0.39016830001492053,443045,001,2024-09-11_22h23.43.919,Adaptive Staircase Experiment h.w,2024.1.5,None,2024-09-11 22h23.47.311808 +0530,
12,0.5,1.5,12.470681699982379,,12.45670430001337,12.470681699982379,12.968464299978223,12.968464299978223,12.985032099997625,,13.1704000000027,right,1.5,0,0,0.19134540000231937,443045,001,2024-09-11_22h23.43.919,Adaptive Staircase Experiment h.w,2024.1.5,None,2024-09-11 22h23.47.311808 +0530,
13,0.5,2.0,13.185175699996762,,13.170561900013126,13.185175699996762,13.68497549998574,13.68497549998574,13.68497549998574,13.985590900003444,14.322777899971697,right,2.0,1,1,0.6308214000309817,443045,001,2024-09-11_22h23.43.919,Adaptive Staircase Experiment h.w,2024.1.5,None,2024-09-11 22h23.47.311808 +0530,
14,0.5,2.0,14.335412100015674,,14.322953199967742,14.335412100015674,14.836303199990653,14.836303199990653,14.836303199990653,15.135341399989557,15.18738839996513,left,-2.0,1,1,0.34052949998294935,443045,001,2024-09-11_22h23.43.919,Adaptive Staircase Experiment h.w,2024.1.5,None,2024-09-11 22h23.47.311808 +0530,
15,0.5,2.0,15.202184499998111,,15.187564999971073,15.202184499998111,15.702104499971028,15.702104499971028,15.702104499971028,16.002126800012775,16.104550599993672,right,2.0,1,1,0.3850170000223443,443045,001,2024-09-11_22h23.43.919,Adaptive Staircase Experiment h.w,2024.1.5,None,2024-09-11 22h23.47.311808 +0530,
16,0.5,1.5,16.118873499974143,,16.10473819996696,16.118873499974143,16.618837399990298,16.618837399990298,16.618837399990298,,16.821008800005075,right,1.5,0,0,0.18945950001943856,443045,001,2024-09-11_22h23.43.919,Adaptive Staircase Experiment h.w,2024.1.5,None,2024-09-11 22h23.47.311808 +0530,
17,0.5,2.0,16.835420200019144,,16.821192100003827,16.835420200019144,17.335694600013085,17.335694600013085,17.335694600013085,,17.55449830001453,right,2.0,1,1,0.2133124999818392,443045,001,2024-09-11_22h23.43.919,Adaptive Staircase Experiment h.w,2024.1.5,None,2024-09-11 22h23.47.311808 +0530,
18,0.5,2.0,17.56898949999595,,17.55467340000905,17.56898949999595,18.068918299977668,18.068918299977668,18.068918299977668,18.36775839998154,18.636655699985567,right,2.0,0,0,0.5571827000239864,443045,001,2024-09-11_22h23.43.919,Adaptive Staircase Experiment h.w,2024.1.5,None,2024-09-11 22h23.47.311808 +0530,
19,0.5,2.5,18.651220300002024,,18.6367942999932,18.651220300002024,19.15180779999355,19.15180779999355,19.15180779999355,19.45179769996321,19.508137699973304,left,-2.5,0,0,0.34839539998210967,443045,001,2024-09-11_22h23.43.919,Adaptive Staircase Experiment h.w,2024.1.5,None,2024-09-11 22h23.47.311808 +0530,
20,0.5,3.0,19.535339800000656,,19.50846799998544,19.535339800000656,20.01825409999583,20.01825409999583,20.035396299965214,20.318410800013226,20.77236509998329,right,3.0,1,1,0.7470983999664895,443045,001,2024-09-11_22h23.43.919,Adaptive Staircase Experiment h.w,2024.1.5,None,2024-09-11 22h23.47.311808 +0530,
21,0.5,3.0,20.78716979996534,,20.772578999982215,20.78716979996534,21.286648800014518,21.286648800014518,21.286648800014518,21.584556799964048,21.670238199993037,right,3.0,0,0,0.3761633000103757,443045,001,2024-09-11_22h23.43.919,Adaptive Staircase Experiment h.w,2024.1.5,None,2024-09-11 22h23.47.311808 +0530,
22,0.5,3.5,21.68533920001937,,21.670438900007866,21.68533920001937,22.186148200009484,22.186148200009484,22.186148200009484,,22.338206299988087,right,3.5,1,1,0.138374800037127,443045,001,2024-09-11_22h23.43.919,Adaptive Staircase Experiment h.w,2024.1.5,None,2024-09-11 22h23.47.311808 +0530,
23,0.5,3.5,22.353677899984177,,22.33841929998016,22.353677899984177,22.853641499998048,22.853641499998048,22.869117699970957,23.169145299994852,23.304734600009397,left,-3.5,0,0,0.44287460000487044,443045,001,2024-09-11_22h23.43.919,Adaptive Staircase Experiment h.w,2024.1.5,None,2024-09-11 22h23.47.311808 +0530,
24,0.5,4.0,23.319099500018638,,23.304935199965257,23.319099500018638,23.81907460000366,23.81907460000366,23.81907460000366,,23.854845499969088,left,-4.0,1,1,0.019632100011222064,443045,001,2024-09-11_22h23.43.919,Adaptive Staircase Experiment h.w,2024.1.5,None,2024-09-11 22h23.47.311808 +0530,
25,0.5,4.0,23.8700070999912,,23.855038499983493,23.8700070999912,24.369172799983062,24.369172799983062,24.385102899977937,24.668528000009246,24.83704840001883,right,4.0,1,1,0.46292350004659966,443045,001,2024-09-11_22h23.43.919,Adaptive Staircase Experiment h.w,2024.1.5,None,2024-09-11 22h23.47.311808 +0530,
26,0.5,4.0,24.852640099998098,,24.837212099984754,24.852640099998098,25.337690000014845,25.337690000014845,25.354254200006835,25.63795529998606,28.38816279999446,right,4.0,1,1,3.044871799997054,443045,001,2024-09-11_22h23.43.919,Adaptive Staircase Experiment h.w,2024.1.5,None,2024-09-11 22h23.47.311808 +0530,
27,0.5,3.5,28.40259429998696,,28.38836599997012,28.40259429998696,28.901434600003995,28.901434600003995,28.918140599969774,29.202078500005882,29.43748969997978,right,3.5,1,1,0.5231773999985307,443045,001,2024-09-11_22h23.43.919,Adaptive Staircase Experiment h.w,2024.1.5,None,2024-09-11 22h23.47.311808 +0530,
28,0.5,3.5,29.45217770000454,,29.437667199992575,29.45217770000454,29.93754730001092,29.93754730001092,29.954364400007762,30.237432900001295,30.538927100016735,right,3.5,1,1,0.5843265000148676,443045,001,2024-09-11_22h23.43.919,Adaptive Staircase Experiment h.w,2024.1.5,None,2024-09-11 22h23.47.311808 +0530,
29,0.5,3.5,30.553156799986027,,30.539143299974967,30.553156799986027,31.051689499989152,31.051689499989152,31.068276799982414,,31.30604639998637,right,3.5,0,0,0.23947990004671738,443045,001,2024-09-11_22h23.43.919,Adaptive Staircase Experiment h.w,2024.1.5,None,2024-09-11 22h23.47.311808 +0530,
30,0.5,4.0,31.319095699989703,,31.306249600020237,31.319095699989703,31.819343400013167,31.819343400013167,31.819343400013167,32.11855700000888,32.33745930000441,right,4.0,1,1,0.5157204999704845,443045,001,2024-09-11_22h23.43.919,Adaptive Staircase Experiment h.w,2024.1.5,None,2024-09-11 22h23.47.311808 +0530,
31,0.5,4.0,32.35258469998371,,32.3376230999711,32.35258469998371,32.85229299997445,32.85229299997445,32.85229299997445,33.15498099999968,33.26940539997304,left,-4.0,1,1,0.4099511999520473,443045,001,2024-09-11_22h23.43.919,Adaptive Staircase Experiment h.w,2024.1.5,None,2024-09-11 22h23.47.311808 +0530,
32,0.5,4.0,33.284431600011885,,33.26955149997957,33.284431600011885,33.769822100002784,33.769822100002784,33.78641579998657,34.07047939999029,34.15600919997087,right,4.0,1,1,0.37830140005098656,443045,001,2024-09-11_22h23.43.919,Adaptive Staircase Experiment h.w,2024.1.5,None,2024-09-11 22h23.47.311808 +0530,
33,0.5,3.5,34.17053499998292,,34.15623019996565,34.17053499998292,34.668368500017095,34.668368500017095,34.68501610000385,34.96804229996633,35.18825489998562,right,3.5,1,1,0.5151063000084832,443045,001,2024-09-11_22h23.43.919,Adaptive Staircase Experiment h.w,2024.1.5,None,2024-09-11 22h23.47.311808 +0530,
34,0.5,3.5,35.20268250000663,,35.18846759997541,35.20268250000663,35.70271519996459,35.70271519996459,35.70271519996459,36.003079499991145,36.00524959998438,right,3.5,1,1,0.2985556999919936,443045,001,2024-09-11_22h23.43.919,Adaptive Staircase Experiment h.w,2024.1.5,None,2024-09-11 22h23.47.311808 +0530,
35,0.5,3.5,36.01916419999907,,36.00544340000488,36.01916419999907,36.51920959999552,36.51920959999552,36.51920959999552,36.819487100001425,36.9225737999659,left,-3.5,1,1,0.3855391999823041,443045,001,2024-09-11_22h23.43.919,Adaptive Staircase Experiment h.w,2024.1.5,None,2024-09-11 22h23.47.311808 +0530,
36,0.5,3.0,36.93592760001775,,36.92277589999139,36.93592760001775,37.434536700020544,37.434536700020544,37.45129980001366,37.73495760001242,37.937407799996436,right,3.0,1,1,0.4978802999830805,443045,001,2024-09-11_22h23.43.919,Adaptive Staircase Experiment h.w,2024.1.5,None,2024-09-11 22h23.47.311808 +0530,
37,0.5,3.0,37.95178800000576,,37.93757479998749,37.95178800000576,38.43454549997114,38.43454549997114,38.45129729999462,38.73540399997728,38.938993000017945,left,-3.0,1,1,0.5005831999587826,443045,001,2024-09-11_22h23.43.919,Adaptive Staircase Experiment h.w,2024.1.5,None,2024-09-11 22h23.47.311808 +0530,
38,0.5,3.0,38.953691500006244,,38.9391873999848,38.953691500006244,39.45165810000617,39.45165810000617,39.468619299994316,39.75178489997052,39.787151199998334,right,3.0,1,1,0.32142200000816956,443045,001,2024-09-11_22h23.43.919,Adaptive Staircase Experiment h.w,2024.1.5,None,2024-09-11 22h23.47.311808 +0530,
39,0.5,2.5,39.80262849997962,,39.78731849999167,39.80262849997962,40.301911299990024,40.301911299990024,40.301911299990024,40.602378399984445,40.80359209998278,right,2.5,0,0,0.49455169995781034,443045,001,2024-09-11_22h23.43.919,Adaptive Staircase Experiment h.w,2024.1.5,None,2024-09-11 22h23.47.311808 +0530,
40,0.5,3.0,40.8193908999674,,40.80378750001546,40.8193908999674,41.31854459998431,41.31854459998431,41.31854459998431,41.61839690001216,41.80547929997556,right,3.0,1,1,0.4779110999661498,443045,001,2024-09-11_22h23.43.919,Adaptive Staircase Experiment h.w,2024.1.5,None,2024-09-11 22h23.47.311808 +0530,
41,0.5,3.0,41.82053859997541,,41.80569579999428,41.82053859997541,42.31978069996694,42.31978069996694,42.31978069996694,42.61982069996884,42.85632199997781,left,-3.0,1,1,0.5187385000172071,443045,001,2024-09-11_22h23.43.919,Adaptive Staircase Experiment h.w,2024.1.5,None,2024-09-11 22h23.47.311808 +0530,
42,0.5,3.0,42.870177200005855,,42.85653749998892,42.870177200005855,43.3683245999855,43.3683245999855,43.38499609997962,43.66837129998021,43.70343930000672,right,3.0,1,1,0.32535830000415444,443045,001,2024-09-11_22h23.43.919,Adaptive Staircase Experiment h.w,2024.1.5,None,2024-09-11 22h23.47.311808 +0530,
43,0.5,2.5,43.7183614000096,,43.7035981999943,43.7183614000096,44.219378000008874,44.219378000008874,44.219378000008874,44.5192613999825,44.721296500007156,right,2.5,1,1,0.4865743000409566,443045,001,2024-09-11_22h23.43.919,Adaptive Staircase Experiment h.w,2024.1.5,None,2024-09-11 22h23.47.311808 +0530,
44,0.5,2.5,44.73677089996636,,44.721492399985436,44.73677089996636,45.23636689997511,45.23636689997511,45.23636689997511,45.536043800006155,45.70575690001715,left,-2.5,0,0,0.45229119999567047,443045,001,2024-09-11_22h23.43.919,Adaptive Staircase Experiment h.w,2024.1.5,None,2024-09-11 22h23.47.311808 +0530,
45,0.5,3.0,45.71923340001376,,45.70595269999467,45.71923340001376,46.220036200014874,46.220036200014874,46.220036200014874,,46.254918699967675,right,3.0,0,0,0.02167270000791177,443045,001,2024-09-11_22h23.43.919,Adaptive Staircase Experiment h.w,2024.1.5,None,2024-09-11 22h23.47.311808 +0530,
46,0.5,3.5,46.269310700008646,,46.25511819997337,46.269310700008646,46.769772799976636,46.769772799976636,46.769772799976636,47.06789740000386,47.31940619996749,left,-3.5,1,1,0.5444519000011496,443045,001,2024-09-11_22h23.43.919,Adaptive Staircase Experiment h.w,2024.1.5,None,2024-09-11 22h23.47.311808 +0530,
47,0.5,3.5,47.33717179996893,,47.31955580000067,47.33717179996893,47.81868129997747,47.81868129997747,47.851756100018974,48.11852129996987,48.2700711999787,left,-3.5,1,1,0.4399212999851443,443045,001,2024-09-11_22h23.43.919,Adaptive Staircase Experiment h.w,2024.1.5,None,2024-09-11 22h23.47.311808 +0530,
48,0.5,3.5,48.28594149998389,,48.2702341999975,48.28594149998389,48.769803199975286,48.769803199975286,48.78631699999096,49.07050789997447,49.339178599999286,left,-3.5,1,1,0.5611429999698885,443045,001,2024-09-11_22h23.43.919,Adaptive Staircase Experiment h.w,2024.1.5,None,2024-09-11 22h23.47.311808 +0530,
49,0.5,3.0,49.353742000006605,,49.33940459997393,49.353742000006605,49.853175800002646,49.853175800002646,49.853175800002646,50.15324780001538,50.33915529999649,right,3.0,1,1,0.4725025999941863,443045,001,2024-09-11_22h23.43.919,Adaptive Staircase Experiment h.w,2024.1.5,None,2024-09-11 22h23.47.311808 +0530,
50,0.5,3.0,50.35396249999758,,50.33937269996386,50.35396249999758,50.851954800018575,50.851954800018575,50.86808340001153,51.15168479998829,51.37141750002047,left,-3.0,1,1,0.5050403000204824,443045,001,2024-09-11_22h23.43.919,Adaptive Staircase Experiment h.w,2024.1.5,None,2024-09-11 22h23.47.311808 +0530,
51,0.5,3.0,51.386837199970614,,51.371630700014066,51.386837199970614,51.88514460000442,51.88514460000442,51.902061600005254,52.18533499998739,52.42068119999021,left,-3.0,1,1,0.5303750999737531,443045,001,2024-09-11_22h23.43.919,Adaptive Staircase Experiment h.w,2024.1.5,None,2024-09-11 22h23.47.311808 +0530,
52,0.5,2.5,52.436883400019724,,52.420862999977544,52.436883400019724,52.9351592999883,52.9351592999883,52.951793399988674,53.23535069997888,53.79028710001148,left,-2.5,1,1,0.8514457999845035,443045,001,2024-09-11_22h23.43.919,Adaptive Staircase Experiment h.w,2024.1.5,None,2024-09-11 22h23.47.311808 +0530,
53,0.5,2.5,53.803826400020625,,53.79050240002107,53.803826400020625,54.301883700012695,54.301883700012695,54.3182594999671,54.60209549998399,55.12198489997536,right,2.5,1,1,0.811466199986171,443045,001,2024-09-11_22h23.43.919,Adaptive Staircase Experiment h.w,2024.1.5,None,2024-09-11 22h23.47.311808 +0530,
54,0.5,2.5,55.13586049998412,,55.12217699998291,55.13586049998412,55.63616669998737,55.63616669998737,55.63616669998737,55.93607990001328,56.12153359997319,right,2.5,1,1,0.4784886999987066,443045,001,2024-09-11_22h23.43.919,Adaptive Staircase Experiment h.w,2024.1.5,None,2024-09-11 22h23.47.311808 +0530,
55,0.5,2.0,56.13634119997732,,56.12173369998345,56.13634119997732,56.636155600019265,56.636155600019265,56.636155600019265,56.93588229996385,57.037108000018634,right,2.0,0,0,0.3924540000152774,443045,001,2024-09-11_22h23.43.919,Adaptive Staircase Experiment h.w,2024.1.5,None,2024-09-11 22h23.47.311808 +0530,
56,0.5,2.5,57.0519656999968,,57.03724889998557,57.0519656999968,57.55125079996651,57.55125079996651,57.55125079996651,57.85109899996314,57.90315699996427,left,-2.5,0,0,0.33750100003089756,443045,001,2024-09-11_22h23.43.919,Adaptive Staircase Experiment h.w,2024.1.5,None,2024-09-11 22h23.47.311808 +0530,
57,0.5,3.0,57.918616999988444,,57.9033131999895,57.918616999988444,58.418421800015494,58.418421800015494,58.418421800015494,58.73375600000145,58.83925919997273,right,3.0,1,1,0.40573620004579425,443045,001,2024-09-11_22h23.43.919,Adaptive Staircase Experiment h.w,2024.1.5,None,2024-09-11 22h23.47.311808 +0530,
58,0.5,3.0,58.853270299965516,,58.839501500013284,58.853270299965516,59.353038000001106,59.353038000001106,59.353038000001106,59.65289789997041,59.9231129999971,right,3.0,1,1,0.5580543999676593,443045,001,2024-09-11_22h23.43.919,Adaptive Staircase Experiment h.w,2024.1.5,None,2024-09-11 22h23.47.311808 +0530,
59,0.5,3.0,59.937323199992534,,59.923331499972846,59.937323199992534,60.43725479999557,60.43725479999557,60.4529236999806,60.73669290001271,60.923250399995595,right,3.0,1,1,0.47608960000798106,443045,001,2024-09-11_22h23.43.919,Adaptive Staircase Experiment h.w,2024.1.5,None,2024-09-11 22h23.47.311808 +0530,
60,0.5,2.5,60.93709229998058,,60.92348060000222,60.93709229998058,61.43650409998372,61.43650409998372,61.43650409998372,61.736559799988754,61.88984800002072,left,-2.5,0,0,0.44716280000284314,443045,001,2024-09-11_22h23.43.919,Adaptive Staircase Experiment h.w,2024.1.5,None,2024-09-11 22h23.47.311808 +0530,
61,0.5,3.0,61.90390939998906,,61.89007439999841,61.90390939998906,62.40251990000252,62.40251990000252,62.41925949999131,62.70260199997574,62.97191650001332,right,3.0,1,1,0.5670731000136584,443045,001,2024-09-11_22h23.43.919,Adaptive Staircase Experiment h.w,2024.1.5,None,2024-09-11 22h23.47.311808 +0530,
62,0.5,3.0,62.986424100003205,,62.9721110999817,62.986424100003205,63.486475399986375,63.486475399986375,63.486475399986375,63.801727499987464,63.93682699999772,left,-3.0,1,1,0.44143040000926703,443045,001,2024-09-11_22h23.43.919,Adaptive Staircase Experiment h.w,2024.1.5,None,2024-09-11 22h23.47.311808 +0530,
63,0.5,3.0,63.951290900004096,,63.93697759998031,63.951290900004096,64.45604079996701,64.45604079996701,64.45604079996701,64.76893449999625,64.85461199999554,right,3.0,1,1,0.39254849997814745,443045,001,2024-09-11_22h23.43.919,Adaptive Staircase Experiment h.w,2024.1.5,None,2024-09-11 22h23.47.311808 +0530,
64,0.5,2.5,64.86951129999943,,64.85482569999294,64.86951129999943,65.36876310000662,65.36876310000662,65.36876310000662,65.66878940002061,65.77170260000275,left,-2.5,1,1,0.38520330004394054,443045,001,2024-09-11_22h23.43.919,Adaptive Staircase Experiment h.w,2024.1.5,None,2024-09-11 22h23.47.311808 +0530,
65,0.5,2.5,65.78547020000406,,65.77190499997232,65.78547020000406,66.28629700001329,66.28629700001329,66.28629700001329,66.58557950000977,66.65408150001895,right,2.5,1,1,0.3556438999949023,443045,001,2024-09-11_22h23.43.919,Adaptive Staircase Experiment h.w,2024.1.5,None,2024-09-11 22h23.47.311808 +0530,
66,0.5,2.5,66.66943289997289,,66.6542595999781,66.66943289997289,67.16905650001718,67.16905650001718,67.16905650001718,67.46891599998344,67.7208404999692,left,-2.5,1,1,0.5403918999945745,443045,001,2024-09-11_22h23.43.919,Adaptive Staircase Experiment h.w,2024.1.5,None,2024-09-11 22h23.47.311808 +0530,
67,0.5,2.0,67.73559629998636,,67.7210171999759,67.73559629998636,68.23567449999973,68.23567449999973,68.23567449999973,68.53545989998383,68.73740440001711,right,2.0,1,1,0.4849887999589555,443045,001,2024-09-11_22h23.43.919,Adaptive Staircase Experiment h.w,2024.1.5,None,2024-09-11 22h23.47.311808 +0530,
68,0.5,2.0,68.75246009998955,,68.73758239997551,68.75246009998955,69.25138430000516,69.25138430000516,69.26788920001127,69.55316120001953,69.87242520001018,right,2.0,1,1,0.6143150000134483,443045,001,2024-09-11_22h23.43.919,Adaptive Staircase Experiment h.w,2024.1.5,None,2024-09-11 22h23.47.311808 +0530,
69,0.5,2.0,69.8871335000149,,69.87264229997527,69.8871335000149,70.38606920000166,70.38606920000166,70.40177559998119,70.68513359996723,70.93973240000196,left,-2.0,1,1,0.5403395000030287,443045,001,2024-09-11_22h23.43.919,Adaptive Staircase Experiment h.w,2024.1.5,None,2024-09-11 22h23.47.311808 +0530,
70,0.5,1.5,70.95396889996482,,70.9399583999766,70.95396889996482,71.45318309997674,71.45318309997674,71.45318309997674,71.75310019997414,71.83883799996693,left,-1.5,0,0,0.3695593000156805,443045,001,2024-09-11_22h23.43.919,Adaptive Staircase Experiment h.w,2024.1.5,None,2024-09-11 22h23.47.311808 +0530,
71,0.5,2.0,71.85326090001035,,71.83906570001272,71.85326090001035,72.35445360001177,72.35445360001177,72.35445360001177,72.65383929997915,73.02159369998844,right,2.0,0,0,0.6621371999499388,443045,001,2024-09-11_22h23.43.919,Adaptive Staircase Experiment h.w,2024.1.5,None,2024-09-11 22h23.47.311808 +0530,
72,0.5,2.5,73.03588919999311,,73.02177270001266,73.03588919999311,73.52109150000615,73.52109150000615,73.53774379997049,73.82071940001333,74.17626520001795,right,2.5,1,1,0.6483709000167437,443045,001,2024-09-11_22h23.43.919,Adaptive Staircase Experiment h.w,2024.1.5,None,2024-09-11 22h23.47.311808 +0530,
73,0.5,2.5,74.20184469997184,,74.17655390000436,74.20184469997184,74.6864845000091,74.6864845000091,74.7038065000088,74.98650359996827,75.62284279998858,left,-2.5,1,1,0.9247655000071973,443045,001,2024-09-11_22h23.43.919,Adaptive Staircase Experiment h.w,2024.1.5,None,2024-09-11 22h23.47.311808 +0530,
74,0.5,2.5,75.63768629997503,,75.62306040001567,75.63768629997503,76.12142500001937,76.12142500001937,76.1376838000142,76.43528209999204,77.5865617999807,left,-2.5,0,0,1.4522726999712177,443045,001,2024-09-11_22h23.43.919,Adaptive Staircase Experiment h.w,2024.1.5,None,2024-09-11 22h23.47.311808 +0530,
75,0.5,3.0,77.60131349996664,,77.58669799997006,77.60131349996664,78.08639760001097,78.08639760001097,78.10310489998665,78.4018505999702,78.68625460000476,left,-3.0,0,0,0.597473900008481,443045,001,2024-09-11_22h23.43.919,Adaptive Staircase Experiment h.w,2024.1.5,None,2024-09-11 22h23.47.311808 +0530,
76,0.5,3.5,78.70121660002042,,78.68639280000934,78.70121660002042,79.20181369996862,79.20181369996862,79.20181369996862,,79.45398819999536,left,-3.5,1,1,0.24081839999416843,443045,001,2024-09-11_22h23.43.919,Adaptive Staircase Experiment h.w,2024.1.5,None,2024-09-11 22h23.47.311808 +0530,
77,0.5,3.5,79.46857670001918,,79.45414960000198,79.46857670001918,79.95307390001835,79.95307390001835,79.97047160001239,80.25327509996714,80.4063376999693,left,-3.5,1,1,0.44349730003159493,443045,001,2024-09-11_22h23.43.919,Adaptive Staircase Experiment h.w,2024.1.5,None,2024-09-11 22h23.47.311808 +0530,
78,0.5,3.5,80.42082609998761,,80.40660250000656,80.42082609998761,80.91934289998608,80.91934289998608,80.9351429999806,81.21880849997979,81.32048569998005,left,-3.5,1,1,0.387659200001508,443045,001,2024-09-11_22h23.43.919,Adaptive Staircase Experiment h.w,2024.1.5,None,2024-09-11 22h23.47.311808 +0530,
79,0.5,3.0,81.33526530000381,,81.32065770000918,81.33526530000381,81.82043069996871,81.82043069996871,81.83646500000032,82.13521869998658,82.23929739999585,left,-3.0,1,1,0.4146321999724023,443045,001,2024-09-11_22h23.43.919,Adaptive Staircase Experiment h.w,2024.1.5,None,2024-09-11 22h23.47.311808 +0530,
80,0.5,3.0,82.25358580000466,,82.23953389999224,82.25358580000466,82.75449159997515,82.75449159997515,82.75449159997515,83.05406210001092,83.28953989996808,right,3.0,1,1,0.5223088000202551,443045,001,2024-09-11_22h23.43.919,Adaptive Staircase Experiment h.w,2024.1.5,None,2024-09-11 22h23.47.311808 +0530,
81,0.5,3.0,83.30411420000019,,83.28976050001802,83.30411420000019,83.80370320001384,83.80370320001384,83.80370320001384,84.11812689999351,84.35389520000899,right,3.0,1,1,0.5449870000011288,443045,001,2024-09-11_22h23.43.919,Adaptive Staircase Experiment h.w,2024.1.5,None,2024-09-11 22h23.47.311808 +0530,
82,0.5,2.5,84.36842830001842,,84.35408209997695,84.36842830001842,84.86830949998694,84.86830949998694,84.86830949998694,85.16815260000294,85.30332700000145,right,2.5,1,1,0.4281716999830678,443045,001,2024-09-11_22h23.43.919,Adaptive Staircase Experiment h.w,2024.1.5,None,2024-09-11 22h23.47.311808 +0530,
83,0.5,2.5,85.31870429997798,,85.30348040000536,85.31870429997798,85.8042279999936,85.8042279999936,85.82148549996782,86.10368050000397,86.23987230000785,left,-2.5,0,0,0.41798590001417324,443045,001,2024-09-11_22h23.43.919,Adaptive Staircase Experiment h.w,2024.1.5,None,2024-09-11 22h23.47.311808 +0530,
84,0.5,3.0,86.25467180000851,,86.24013019999256,86.25467180000851,86.75200989999576,86.75200989999576,86.7685498999781,87.05183339997893,87.48909809999168,left,-3.0,1,1,0.7307757000089623,443045,001,2024-09-11_22h23.43.919,Adaptive Staircase Experiment h.w,2024.1.5,None,2024-09-11 22h23.47.311808 +0530,
85,0.5,3.0,87.5039496999816,,87.48931430000812,87.5039496999816,88.00409549998585,88.00409549998585,88.0211950999801,88.30423279997194,88.45691639999859,right,3.0,1,1,0.4491387000307441,443045,001,2024-09-11_22h23.43.919,Adaptive Staircase Experiment h.w,2024.1.5,None,2024-09-11 22h23.47.311808 +0530,
86,0.5,3.0,88.47086459997809,,88.4571913999971,88.47086459997809,88.97068640001817,88.97068640001817,88.97068640001817,89.27054230001522,89.42091370001435,left,-3.0,0,0,0.439687900012359,443045,001,2024-09-11_22h23.43.919,Adaptive Staircase Experiment h.w,2024.1.5,None,2024-09-11 22h23.47.311808 +0530,
87,0.5,3.5,89.43530489999102,,89.4210845999769,89.43530489999102,89.92110540001886,89.92110540001886,89.93765520001762,90.23532029998023,90.90568069997244,right,3.5,1,1,0.9693916999967769,443045,001,2024-09-11_22h23.43.919,Adaptive Staircase Experiment h.w,2024.1.5,None,2024-09-11 22h23.47.311808 +0530,
88,0.5,3.5,90.92041259998223,,90.90590219997102,90.92041259998223,91.41990759997861,91.41990759997861,91.41990759997861,91.71992639999371,91.7889717000071,right,3.5,0,0,0.3559693000279367,443045,001,2024-09-11_22h23.43.919,Adaptive Staircase Experiment h.w,2024.1.5,None,2024-09-11 22h23.47.311808 +0530,
89,0.5,4.0,91.80349429999478,,91.78920030000154,91.80349429999478,92.3026437999797,92.3026437999797,92.3026437999797,92.60261709999759,92.92169069999363,right,4.0,1,1,0.6108718999894336,443045,001,2024-09-11_22h23.43.919,Adaptive Staircase Experiment h.w,2024.1.5,None,2024-09-11 22h23.47.311808 +0530,
90,0.5,4.0,92.93662829999812,,92.92188549996354,92.93662829999812,93.4362210999825,93.4362210999825,93.4362210999825,93.73610420001205,93.99017840001034,left,-4.0,1,1,0.5496491999947466,443045,001,2024-09-11_22h23.43.919,Adaptive Staircase Experiment h.w,2024.1.5,None,2024-09-11 22h23.47.311808 +0530,
91,0.5,4.0,94.00280449999264,,93.99039589997847,94.00280449999264,94.5035804999643,94.5035804999643,94.5035804999643,94.80318109999644,95.15295879996847,left,-4.0,1,1,0.6452921999734826,443045,001,2024-09-11_22h23.43.919,Adaptive Staircase Experiment h.w,2024.1.5,None,2024-09-11 22h23.47.311808 +0530,
92,0.5,3.5,95.16863209998701,,95.153098699986,95.16863209998701,95.6521461000084,95.6521461000084,95.66851859999588,95.95186530001229,96.18735829996876,right,3.5,1,1,0.5227215999620967,443045,001,2024-09-11_22h23.43.919,Adaptive Staircase Experiment h.w,2024.1.5,None,2024-09-11 22h23.47.311808 +0530,
93,0.5,3.5,96.2027844999684,,96.1875224999967,96.2027844999684,96.7021226999932,96.7021226999932,96.7021226999932,97.0019238999812,97.22025219997158,left,-3.5,1,1,0.5010580000234768,443045,001,2024-09-11_22h23.43.919,Adaptive Staircase Experiment h.w,2024.1.5,None,2024-09-11 22h23.47.311808 +0530,
94,0.5,3.5,97.23546830000123,,97.2204167000018,97.23546830000123,97.73548480001045,97.73548480001045,97.73548480001045,98.03514940000605,98.3061505999649,right,3.5,1,1,0.5590608000056818,443045,001,2024-09-11_22h23.43.919,Adaptive Staircase Experiment h.w,2024.1.5,None,2024-09-11 22h23.47.311808 +0530,
95,0.5,3.0,98.3215923999669,,98.3063906999887,98.3215923999669,98.81842480000341,98.81842480000341,98.8350511000026,99.11864830000559,99.28637240000535,left,-3.0,1,1,0.4636528000119142,443045,001,2024-09-11_22h23.43.919,Adaptive Staircase Experiment h.w,2024.1.5,None,2024-09-11 22h23.47.311808 +0530,
96,0.5,3.0,99.30133639997803,,99.28650479996577,99.30133639997803,99.8051087000058,99.8051087000058,99.8051087000058,100.1180042999913,100.78953050001292,right,3.0,1,1,0.9764321999973617,443045,001,2024-09-11_22h23.43.919,Adaptive Staircase Experiment h.w,2024.1.5,None,2024-09-11 22h23.47.311808 +0530,
97,0.5,3.0,100.8037684999872,,100.78976850002073,100.8037684999872,101.30310530000133,101.30310530000133,101.30310530000133,101.61841870000353,101.68665250000777,left,-3.0,1,1,0.37284700002055615,443045,001,2024-09-11_22h23.43.919,Adaptive Staircase Experiment h.w,2024.1.5,None,2024-09-11 22h23.47.311808 +0530,
98,0.5,2.5,101.70196370000485,,101.68682509998325,101.70196370000485,102.20155210001394,102.20155210001394,102.20155210001394,102.5031668000156,102.77273389999755,left,-2.5,1,1,0.5552801999729127,443045,001,2024-09-11_22h23.43.919,Adaptive Staircase Experiment h.w,2024.1.5,None,2024-09-11 22h23.47.311808 +0530,
99,0.5,2.5,102.7868966999813,,102.7729806000134,102.7868966999813,103.28779909998411,103.28779909998411,103.28779909998411,103.60199539997848,103.85722010000609,right,2.5,1,1,0.5562567999586463,443045,001,2024-09-11_22h23.43.919,Adaptive Staircase Experiment h.w,2024.1.5,None,2024-09-11 22h23.47.311808 +0530,
